File: ATOM_scripts_lecture/CLAYFF_3W_NaMMT/MMT_clayff/xrd.dat
2	20.163
2.05	19.285
2.1	18.468
2.15	17.707
2.2	16.996
2.25	16.331
2.3	15.708
2.35	15.124
2.4	14.575
2.45	14.059
2.5	13.573
2.55	13.116
2.6	12.684
2.65	12.275
2.7	11.889
2.75	11.524
2.8	11.178
2.85	10.85
2.9	10.538
2.95	10.242
3	9.9606
3.05	9.693
3.1	9.4381
3.15	9.1953
3.2	8.9639
3.25	8.7431
3.3	8.5323
3.35	8.3311
3.4	8.1388
3.45	7.955
3.5	7.7791
3.55	7.6109
3.6	7.4499
3.65	7.2956
3.7	7.1479
3.75	7.0064
3.8	6.8707
3.85	6.7406
3.9	6.6158
3.95	6.4962
4	6.3814
4.05	6.2713
4.1	6.1656
4.15	6.0643
4.2	5.967
4.25	5.8737
4.3	5.7842
4.35	5.6984
4.4	5.6161
4.45	5.5372
4.5	5.4616
4.55	5.3892
4.6	5.3199
4.65	5.2537
4.7	5.1903
4.75	5.1299
4.8	5.0722
4.85	5.0173
4.9	4.9651
4.95	4.9155
5	4.8685
5.05	4.8241
5.1	4.7822
5.15	4.7429
5.2	4.7061
5.25	4.6718
5.3	4.64
5.35	4.6108
5.4	4.5842
5.45	4.5603
5.5	4.5389
5.55	4.5204
5.6	4.5046
5.65	4.4918
5.7	4.482
5.75	4.4754
5.8	4.472
5.85	4.4722
5.9	4.476
5.95	4.4836
6	4.4951
6.05	4.5107
6.1	4.5304
6.15	4.5539
6.2	4.5809
6.25	4.611
6.3	4.6437
6.35	4.6786
6.4	4.7158
6.45	4.7558
6.5	4.7997
6.55	4.8487
6.6	4.9039
6.65	4.966
6.7	5.035
6.75	5.1105
6.8	5.1918
6.85	5.2783
6.9	5.3704
6.95	5.4693
7	5.577
7.05	5.696
7.1	5.8291
7.15	5.9789
7.2	6.1474
7.25	6.3366
7.3	6.5477
7.35	6.7822
7.4	7.042
7.45	7.3303
7.5	7.6518
7.55	8.0124
7.6	8.4194
7.65	8.8808
7.7	9.4051
7.75	10.002
7.8	10.68
7.85	11.451
7.9	12.326
7.95	13.315
8	14.427
8.05	15.669
8.1	17.041
8.15	18.531
8.2	20.111
8.25	21.725
8.3	23.29
8.35	24.687
8.4	25.778
8.45	26.425
8.5	26.528
8.55	26.055
8.6	25.055
8.65	23.642
8.7	21.966
8.75	20.174
8.8	18.383
8.85	16.676
8.9	15.101
8.95	13.679
9	12.415
9.05	11.304
9.1	10.335
9.15	9.4972
9.2	8.7753
9.25	8.1564
9.3	7.6291
9.35	7.1843
9.4	6.8173
9.45	6.5271
9.5	6.3183
9.55	6.2023
9.6	6.2017
9.65	6.3572
9.7	6.7357
9.75	7.4182
9.8	8.3683
9.85	9.0703
9.9	8.7358
9.95	7.6489
10	6.6344
10.05	5.9636
10.1	5.5929
10.15	5.4482
10.2	5.4622
10.25	5.4929
10.3	5.3277
10.35	4.9806
10.4	4.6403
10.45	4.3838
10.5	4.2007
10.55	4.0672
10.6	3.9645
10.65	3.8797
10.7	3.8038
10.75	3.731
10.8	3.6585
10.85	3.5861
10.9	3.5154
10.95	3.4489
11	3.3892
11.05	3.3388
11.1	3.3001
11.15	3.2762
11.2	3.2716
11.25	3.2925
11.3	3.3443
11.35	3.4153
11.4	3.4482
11.45	3.386
11.5	3.2724
11.55	3.1732
11.6	3.1054
11.65	3.0631
11.7	3.0385
11.75	3.0265
11.8	3.0247
11.85	3.0319
11.9	3.048
11.95	3.0727
12	3.1057
12.05	3.1471
12.1	3.198
12.15	3.2618
12.2	3.3443
12.25	3.4491
12.3	3.5615
12.35	3.6356
12.4	3.6513
12.45	3.653
12.5	3.6769
12.55	3.7266
12.6	3.7918
12.65	3.856
12.7	3.9013
12.75	3.9226
12.8	3.9246
12.85	3.9101
12.9	3.88
12.95	3.8365
13	3.7818
13.05	3.7155
13.1	3.6338
13.15	3.5389
13.2	3.4409
13.25	3.3471
13.3	3.2604
13.35	3.1825
13.4	3.1156
13.45	3.0627
13.5	3.0261
13.55	3.0031
13.6	2.9789
13.65	2.9383
13.7	2.8906
13.75	2.8517
13.8	2.8257
13.85	2.8101
13.9	2.8018
13.95	2.7981
14	2.7972
14.05	2.7976
14.1	2.7983
14.15	2.7984
14.2	2.7972
14.25	2.7948
14.3	2.7917
14.35	2.7895
14.4	2.7903
14.45	2.7963
14.5	2.8106
14.55	2.8365
14.6	2.8788
14.65	2.9439
14.7	3.038
14.75	3.1582
14.8	3.2732
14.85	3.3371
14.9	3.3645
14.95	3.4142
15	3.5038
15.05	3.5886
15.1	3.6037
15.15	3.5306
15.2	3.4163
15.25	3.3184
15.3	3.2568
15.35	3.2276
15.4	3.2227
15.45	3.2361
15.5	3.2642
15.55	3.3051
15.6	3.3586
15.65	3.4259
15.7	3.5101
15.75	3.6155
15.8	3.7432
15.85	3.877
15.9	3.9758
15.95	4.0179
16	4.0379
16.05	4.0731
16.1	4.1342
16.15	4.2187
16.2	4.3228
16.25	4.4438
16.3	4.5804
16.35	4.7324
16.4	4.9
16.45	5.084
16.5	5.2858
16.55	5.5066
16.6	5.748
16.65	6.0102
16.7	6.2923
16.75	6.5899
16.8	6.8918
16.85	7.1773
16.9	7.4263
16.95	7.6336
17	7.7995
17.05	7.9204
17.1	7.987
17.15	7.9791
17.2	7.8762
17.25	7.6922
17.3	7.4681
17.35	7.2296
17.4	6.9831
17.45	6.7376
17.5	6.5076
17.55	6.2979
17.6	6.1082
17.65	5.9468
17.7	5.8222
17.75	5.7357
17.8	5.6832
17.85	5.6542
17.9	5.6334
17.95	5.614
18	5.6052
18.05	5.617
18.1	5.6541
18.15	5.7154
18.2	5.7904
18.25	5.8583
18.3	5.9118
18.35	5.9713
18.4	6.0577
18.45	6.1801
18.5	6.342
18.55	6.5478
18.6	6.8029
18.65	7.1068
18.7	7.4363
18.75	7.7405
18.8	7.9946
18.85	8.2434
18.9	8.5432
18.95	8.9178
19	9.3757
19.05	9.9287
19.1	10.593
19.15	11.388
19.2	12.342
19.25	13.496
19.3	14.903
19.35	16.64
19.4	18.822
19.45	21.624
19.5	25.309
19.55	30.265
19.6	37.07
19.65	46.522
19.7	59.46
19.75	75.803
19.8	92.088
19.85	100
19.9	93.774
19.95	78.697
20	63.343
20.05	51.42
20.1	43.034
20.15	37.299
20.2	33.369
20.25	30.628
20.3	28.667
20.35	27.226
20.4	26.142
20.45	25.316
20.5	24.687
20.55	24.214
20.6	23.85
20.65	23.542
20.7	23.238
20.75	22.891
20.8	22.448
20.85	21.876
20.9	21.201
20.95	20.471
21	19.724
21.05	18.995
21.1	18.317
21.15	17.699
21.2	17.125
21.25	16.569
21.3	16.05
21.35	15.607
21.4	15.246
21.45	14.947
21.5	14.687
21.55	14.445
21.6	14.198
21.65	13.928
21.7	13.637
21.75	13.34
21.8	13.055
21.85	12.799
21.9	12.587
21.95	12.432
22	12.343
22.05	12.326
22.1	12.383
22.15	12.513
22.2	12.709
22.25	12.956
22.3	13.236
22.35	13.523
22.4	13.785
22.45	13.989
22.5	14.093
22.55	14.065
22.6	13.904
22.65	13.638
22.7	13.292
22.75	12.874
22.8	12.385
22.85	11.857
22.9	11.331
22.95	10.828
23	10.358
23.05	9.9348
23.1	9.5673
23.15	9.2559
23.2	9.0011
23.25	8.8036
23.3	8.6601
23.35	8.5632
23.4	8.5039
23.45	8.4706
23.5	8.4484
23.55	8.4191
23.6	8.3633
23.65	8.2634
23.7	8.1166
23.75	7.9392
23.8	7.749
23.85	7.557
23.9	7.369
23.95	7.1882
24	7.0194
24.05	6.8693
24.1	6.7436
24.15	6.644
24.2	6.5705
24.25	6.525
24.3	6.512
24.35	6.5346
24.4	6.5909
24.45	6.6674
24.5	6.7376
24.55	6.7819
24.6	6.8102
24.65	6.8459
24.7	6.9006
24.75	6.9727
24.8	7.0556
24.85	7.1429
24.9	7.2308
24.95	7.312
25	7.3636
25.05	7.3457
25.1	7.2378
25.15	7.0666
25.2	6.8783
25.25	6.7069
25.3	6.5671
25.35	6.4611
25.4	6.3851
25.45	6.3337
25.5	6.3014
25.55	6.2838
25.6	6.278
25.65	6.2826
25.7	6.2966
25.75	6.3195
25.8	6.3494
25.85	6.3799
25.9	6.3992
25.95	6.4007
26	6.3912
26.05	6.3823
26.1	6.3807
26.15	6.388
26.2	6.4017
26.25	6.4134
26.3	6.405
26.35	6.3547
26.4	6.2574
26.45	6.133
26.5	6.008
26.55	5.8922
26.6	5.771
26.65	5.6232
26.7	5.4509
26.75	5.2794
26.8	5.1298
26.85	5.0093
26.9	4.9169
26.95	4.8485
27	4.8005
27.05	4.7725
27.1	4.7675
27.15	4.7886
27.2	4.8387
27.25	4.9194
27.3	5.0283
27.35	5.1558
27.4	5.2845
27.45	5.3989
27.5	5.4991
27.55	5.6025
27.6	5.728
27.65	5.8796
27.7	6.0344
27.75	6.1341
27.8	6.1138
27.85	5.9706
27.9	5.7678
27.95	5.5659
28	5.3925
28.05	5.255
28.1	5.1551
28.15	5.093
28.2	5.0654
28.25	5.059
28.3	5.0445
28.35	4.9892
28.4	4.8873
28.45	4.7679
28.5	4.6646
28.55	4.5951
28.6	4.5626
28.65	4.563
28.7	4.5846
28.75	4.6081
28.8	4.6151
28.85	4.6013
28.9	4.5778
28.95	4.5584
29	4.5516
29.05	4.5615
29.1	4.5876
29.15	4.6268
29.2	4.6744
29.25	4.7248
29.3	4.7735
29.35	4.82
29.4	4.8675
29.45	4.9206
29.5	4.9834
29.55	5.0594
29.6	5.1511
29.65	5.2565
29.7	5.3659
29.75	5.466
29.8	5.5522
29.85	5.6311
29.9	5.7047
29.95	5.7615
30	5.788
30.05	5.7856
30.1	5.7685
30.15	5.7468
30.2	5.7209
30.25	5.6902
30.3	5.6573
30.35	5.6239
30.4	5.59
30.45	5.5573
30.5	5.5276
30.55	5.5015
30.6	5.4808
30.65	5.4676
30.7	5.4622
30.75	5.4615
30.8	5.4612
30.85	5.456
30.9	5.4415
30.95	5.414
31	5.371
31.05	5.3121
31.1	5.2384
31.15	5.1513
31.2	5.0533
31.25	4.9488
31.3	4.8415
31.35	4.7337
31.4	4.6286
31.45	4.5311
31.5	4.4446
31.55	4.3719
31.6	4.315
31.65	4.2756
31.7	4.2532
31.75	4.2447
31.8	4.2459
31.85	4.2565
31.9	4.2829
31.95	4.334
32	4.4154
32.05	4.5259
32.1	4.6513
32.15	4.7626
32.2	4.8272
32.25	4.8358
32.3	4.8119
32.35	4.7882
32.4	4.7826
32.45	4.7958
32.5	4.8202
32.55	4.8482
32.6	4.8755
32.65	4.9004
32.7	4.9219
32.75	4.9407
32.8	4.9591
32.85	4.9785
32.9	4.9966
32.95	5.0053
33	4.9945
33.05	4.966
33.1	4.9353
33.15	4.919
33.2	4.9259
33.25	4.9549
33.3	4.9937
33.35	5.0205
33.4	5.0179
33.45	4.991
33.5	4.9616
33.55	4.9471
33.6	4.9521
33.65	4.9743
33.7	5.0123
33.75	5.0683
33.8	5.1452
33.85	5.245
33.9	5.3697
33.95	5.5215
34	5.7018
34.05	5.9085
34.1	6.1326
34.15	6.359
34.2	6.5766
34.25	6.7908
34.3	7.0194
34.35	7.2764
34.4	7.5647
34.45	7.8794
34.5	8.2167
34.55	8.5746
34.6	8.9385
34.65	9.265
34.7	9.4977
34.75	9.6203
34.8	9.676
34.85	9.7212
34.9	9.7884
34.95	9.8859
35	10.01
35.05	10.154
35.1	10.308
35.15	10.46
35.2	10.594
35.25	10.695
35.3	10.753
35.35	10.775
35.4	10.77
35.45	10.749
35.5	10.717
35.55	10.677
35.6	10.629
35.65	10.574
35.7	10.519
35.75	10.469
35.8	10.432
35.85	10.413
35.9	10.411
35.95	10.424
36	10.448
36.05	10.476
36.1	10.502
36.15	10.523
36.2	10.532
36.25	10.521
36.3	10.485
36.35	10.417
36.4	10.312
36.45	10.168
36.5	9.9864
36.55	9.7742
36.6	9.5415
36.65	9.2979
36.7	9.0513
36.75	8.8086
36.8	8.5746
36.85	8.3523
36.9	8.1407
36.95	7.936
37	7.7352
37.05	7.5407
37.1	7.3575
37.15	7.1893
37.2	7.0379
37.25	6.904
37.3	6.7882
37.35	6.6915
37.4	6.6152
37.45	6.5601
37.5	6.5265
37.55	6.5131
37.6	6.5159
37.65	6.5285
37.7	6.5427
37.75	6.5496
37.8	6.5429
37.85	6.522
37.9	6.4893
37.95	6.4448
38	6.3837
38.05	6.2988
38.1	6.1858
38.15	6.0476
38.2	5.8942
38.25	5.737
38.3	5.5846
38.35	5.4414
38.4	5.3086
38.45	5.1855
38.5	5.0718
38.55	4.9681
38.6	4.8752
38.65	4.7934
38.7	4.7225
38.75	4.6619
38.8	4.6114
38.85	4.5707
38.9	4.5395
38.95	4.5173
39	4.5034
39.05	4.4945
39.1	4.4847
39.15	4.4668
39.2	4.4385
39.25	4.4047
39.3	4.3739
39.35	4.3527
39.4	4.3441
39.45	4.3484
39.5	4.3647
39.55	4.3923
39.6	4.4304
39.65	4.4778
39.7	4.5329
39.75	4.5936
39.8	4.6582
39.85	4.7248
39.9	4.7927
39.95	4.863
40	4.9394
40.05	5.0283
40.1	5.1366
40.15	5.269
40.2	5.4201
40.25	5.5628
40.3	5.6415
40.35	5.5969
40.4	5.419
40.45	5.1604
40.5	4.8891
40.55	4.648
40.6	4.4518
40.65	4.2986
40.7	4.1791
40.75	4.082
40.8	3.9975
40.85	3.9207
40.9	3.8519
40.95	3.7929
41	3.7441
41.05	3.7043
41.1	3.6712
41.15	3.6423
41.2	3.6163
41.25	3.5933
41.3	3.5745
41.35	3.5616
41.4	3.5559
41.45	3.5584
41.5	3.5696
41.55	3.5894
41.6	3.6164
41.65	3.6483
41.7	3.6837
41.75	3.7224
41.8	3.7656
41.85	3.8142
41.9	3.8666
41.95	3.9186
42	3.965
42.05	4.0025
42.1	4.0312
42.15	4.0521
42.2	4.0652
42.25	4.0693
42.3	4.062
42.35	4.0412
42.4	4.0053
42.45	3.9541
42.5	3.8893
42.55	3.8144
42.6	3.7336
42.65	3.6506
42.7	3.5685
42.75	3.4896
42.8	3.4155
42.85	3.3463
42.9	3.282
42.95	3.2219
43	3.1659
43.05	3.1144
43.1	3.0689
43.15	3.03
43.2	2.9963
43.25	2.9651
43.3	2.9342
43.35	2.904
43.4	2.8768
43.45	2.8551
43.5	2.8396
43.55	2.8291
43.6	2.8212
43.65	2.8133
43.7	2.804
43.75	2.7935
43.8	2.7826
43.85	2.772
43.9	2.762
43.95	2.7527
44	2.7439
44.05	2.7359
44.1	2.7284
44.15	2.7208
44.2	2.7123
44.25	2.7031
44.3	2.6948
44.35	2.6896
44.4	2.6893
44.45	2.6944
44.5	2.7046
44.55	2.7185
44.6	2.7348
44.65	2.7531
44.7	2.7732
44.75	2.7947
44.8	2.8166
44.85	2.8374
44.9	2.8553
44.95	2.8683
45	2.8745
45.05	2.8721
45.1	2.86
45.15	2.8381
45.2	2.8076
45.25	2.7699
45.3	2.7266
45.35	2.6791
45.4	2.6283
45.45	2.5753
45.5	2.522
45.55	2.4707
45.6	2.423
45.65	2.3796
45.7	2.3398
45.75	2.3027
45.8	2.2682
45.85	2.2372
45.9	2.2112
45.95	2.1909
46	2.1764
46.05	2.167
46.1	2.1622
46.15	2.1615
46.2	2.1645
46.25	2.1707
46.3	2.1801
46.35	2.1927
46.4	2.2075
46.45	2.2211
46.5	2.2286
46.55	2.2264
46.6	2.2152
46.65	2.1995
46.7	2.1844
46.75	2.1727
46.8	2.1652
46.85	2.1617
46.9	2.161
46.95	2.162
47	2.1633
47.05	2.1644
47.1	2.1651
47.15	2.165
47.2	2.163
47.25	2.1577
47.3	2.1482
47.35	2.1354
47.4	2.1211
47.45	2.1074
47.5	2.0954
47.55	2.0857
47.6	2.0789
47.65	2.075
47.7	2.0732
47.75	2.0722
47.8	2.0709
47.85	2.0689
47.9	2.0671
47.95	2.0657
48	2.0644
48.05	2.0618
48.1	2.0564
48.15	2.0474
48.2	2.0346
48.25	2.0186
48.3	1.9999
48.35	1.979
48.4	1.9563
48.45	1.9324
48.5	1.9077
48.55	1.8823
48.6	1.8564
48.65	1.8307
48.7	1.8063
48.75	1.784
48.8	1.7645
48.85	1.7478
48.9	1.7338
48.95	1.7222
49	1.7131
49.05	1.7066
49.1	1.7027
49.15	1.7015
49.2	1.7028
49.25	1.7063
49.3	1.7121
49.35	1.7198
49.4	1.7288
49.45	1.7384
49.5	1.7474
49.55	1.7548
49.6	1.7599
49.65	1.7623
49.7	1.7618
49.75	1.7581
49.8	1.7515
49.85	1.7426
49.9	1.732
49.95	1.7201
50	1.7065
50.05	1.6903
50.1	1.6711
50.15	1.6499
50.2	1.6284
50.25	1.6085
50.3	1.5914
50.35	1.5776
50.4	1.567
50.45	1.5594
50.5	1.5543
50.55	1.5518
50.6	1.5515
50.65	1.5535
50.7	1.5579
50.75	1.5648
50.8	1.5741
50.85	1.5859
50.9	1.6001
50.95	1.6165
51	1.6348
51.05	1.6544
51.1	1.6746
51.15	1.6947
51.2	1.7142
51.25	1.7324
51.3	1.7489
51.35	1.7627
51.4	1.7728
51.45	1.7777
51.5	1.7761
51.55	1.7672
51.6	1.7514
51.65	1.7302
51.7	1.7058
51.75	1.6805
51.8	1.6557
51.85	1.6324
51.9	1.6113
51.95	1.5932
52	1.5781
52.05	1.5661
52.1	1.5565
52.15	1.5484
52.2	1.5414
52.25	1.5356
52.3	1.532
52.35	1.531
52.4	1.5325
52.45	1.5355
52.5	1.539
52.55	1.5418
52.6	1.5441
52.65	1.5465
52.7	1.5499
52.75	1.5551
52.8	1.5625
52.85	1.5725
52.9	1.5852
52.95	1.6005
53	1.6182
53.05	1.6377
53.1	1.6585
53.15	1.6806
53.2	1.7042
53.25	1.7298
53.3	1.7578
53.35	1.7889
53.4	1.8235
53.45	1.8628
53.5	1.9076
53.55	1.9593
53.6	2.019
53.65	2.0885
53.7	2.1698
53.75	2.265
53.8	2.377
53.85	2.509
53.9	2.6639
53.95	2.8434
54	3.0448
54.05	3.256
54.1	3.4518
54.15	3.5969
54.2	3.6611
54.25	3.6381
54.3	3.5496
54.35	3.4291
54.4	3.3046
54.45	3.1916
54.5	3.0964
54.55	3.0195
54.6	2.9587
54.65	2.911
54.7	2.8732
54.75	2.8427
54.8	2.8175
54.85	2.7959
54.9	2.7769
54.95	2.76
55	2.7447
55.05	2.7311
55.1	2.7187
55.15	2.7074
55.2	2.6967
55.25	2.6863
55.3	2.6761
55.35	2.6657
55.4	2.6547
55.45	2.6424
55.5	2.6277
55.55	2.6096
55.6	2.5876
55.65	2.5622
55.7	2.5344
55.75	2.5053
55.8	2.4757
55.85	2.4461
55.9	2.4166
55.95	2.3875
56	2.3593
56.05	2.3322
56.1	2.3065
56.15	2.2823
56.2	2.2596
56.25	2.2383
56.3	2.218
56.35	2.1982
56.4	2.1786
56.45	2.1592
56.5	2.14
56.55	2.1209
56.6	2.1019
56.65	2.0827
56.7	2.0632
56.75	2.043
56.8	2.0222
56.85	2.0011
56.9	1.9801
56.95	1.9597
57	1.94
57.05	1.9211
57.1	1.9026
57.15	1.8841
57.2	1.8652
57.25	1.8454
57.3	1.8245
57.35	1.8019
57.4	1.7776
57.45	1.7518
57.5	1.725
57.55	1.698
57.6	1.6712
57.65	1.6452
57.7	1.62
57.75	1.5958
57.8	1.5722
57.85	1.549
57.9	1.5256
57.95	1.5019
58	1.4779
58.05	1.4537
58.1	1.4297
58.15	1.406
58.2	1.3827
58.25	1.3599
58.3	1.3376
58.35	1.3159
58.4	1.2946
58.45	1.2735
58.5	1.2527
58.55	1.2323
58.6	1.213
58.65	1.1949
58.7	1.1784
58.75	1.1635
58.8	1.1504
58.85	1.1388
58.9	1.1288
58.95	1.1202
59	1.113
59.05	1.1073
59.1	1.1028
59.15	1.0995
59.2	1.0975
59.25	1.0969
59.3	1.0978
59.35	1.1005
59.4	1.105
59.45	1.1113
59.5	1.1185
59.55	1.1257
59.6	1.1313
59.65	1.1345
59.7	1.1354
59.75	1.135
59.8	1.1346
59.85	1.1349
59.9	1.136
59.95	1.1381
60	1.141